Folder: B9/XRD/data/peaks

File: peaks_BFO.csv
H	K	L	2THETA	D-VALUE	MULT	INTENSITY
1	-1	-1	19.46	4.5623	2	0.0
1	-1	2	22.43	3.9640	2	853.0
1	0	-2	22.43	3.9640	2	853.0
0	1	2	22.43	3.9640	2	853.0
0	1	-4	31.76	2.8170	2	998.9
1	-1	-4	31.76	2.8170	2	998.9
1	0	4	31.76	2.8170	2	998.9
1	1	0	32.09	2.7893	2	1000.0
2	-1	0	32.09	2.7893	2	1000.0
1	-2	0	32.09	2.7893	2	1000.0
1	-1	5	37.38	2.4056	2	0.0
1	1	-3	37.66	2.3883	2	6.2
1	1	3	37.66	2.3883	2	6.2
1	-2	3	37.66	2.3883	2	6.2
2	-1	-3	37.66	2.3883	2	6.2
1	-2	-3	37.66	2.3883	2	6.2
2	-1	3	37.66	2.3883	2	6.2
2	-2	1	37.80	2.3797	2	0.0
0	0	6	38.96	2.3116	2	262.7
2	-2	-2	39.50	2.2811	2	300.9
0	2	-2	39.50	2.2811	2	300.9
2	0	2	39.50	2.2811	2	300.9
2	0	-4	45.78	1.9820	2	424.4
2	-2	4	45.78	1.9820	2	424.4
0	2	4	45.78	1.9820	2	424.4
1	-1	-7	49.74	1.8332	2	0.0
2	-2	-5	50.07	1.8217	2	0.0
3	-2	-1	50.41	1.8104	2	1.5
2	-3	-1	50.41	1.8104	2	1.5
3	-1	1	50.41	1.8104	2	1.5
1	-3	1	50.41	1.8104	2	1.5
2	1	1	50.41	1.8104	2	1.5
1	2	-1	50.41	1.8104	2	1.5
2	-1	-6	51.33	1.7798	2	156.8
1	-2	6	51.33	1.7798	2	156.8
1	1	-6	51.33	1.7798	2	156.8
1	1	6	51.33	1.7798	2	156.8
1	-2	-6	51.33	1.7798	2	156.8
2	-1	6	51.33	1.7798	2	156.8
2	-3	2	51.77	1.7658	2	83.6
2	1	-2	51.77	1.7658	2	83.6
3	-2	2	51.77	1.7658	2	83.6
1	2	2	51.77	1.7658	2	83.6
1	-3	-2	51.77	1.7658	2	83.6
3	-1	-2	51.77	1.7658	2	83.6
1	0	-8	56.38	1.6318	2	153.6
1	-1	8	56.38	1.6318	2	153.6
0	1	8	56.38	1.6318	2	153.6
3	-2	-4	57.00	1.6157	2	180.2
2	-3	-4	57.00	1.6157	2	180.2
1	2	-4	57.00	1.6157	2	180.2
2	1	4	57.00	1.6157	2	180.2
1	-3	4	57.00	1.6157	2	180.2
3	-1	4	57.00	1.6157	2	180.2
3	-3	0	57.20	1.6104	2	196.1
3	0	0	57.20	1.6104	2	196.1
0	3	0	57.20	1.6104	2	196.1

File: peaks_Bi2Fe4O9.csv
H	K	L	2THETA	D-VALUE	MULT	INTENSITY
0	0	1	14.76	6.0003	2	1000.0
1	-1	0	15.29	5.7948	2	21.6
1	1	0	15.29	5.7948	2	21.6
0	2	0	21.05	4.2196	2	219.2
1	1	-1	21.32	4.1683	2	6.6
1	1	1	21.32	4.1683	2	6.6
1	-1	1	21.32	4.1683	2	6.6
1	-1	-1	21.32	4.1683	2	6.6
2	0	0	22.31	3.9855	2	150.5
1	2	0	23.86	3.7293	2	177.7
1	-2	0	23.86	3.7293	2	177.7
2	-1	0	24.70	3.6039	2	107.9
2	1	0	24.70	3.6039	2	107.9
0	2	-1	25.81	3.4516	2	164.9
0	2	1	25.81	3.4516	2	164.9
2	0	-1	26.85	3.3199	2	225.1
2	0	1	26.85	3.3199	2	225.1
1	2	-1	28.17	3.1674	2	476.2
1	-2	1	28.17	3.1674	2	476.2
1	2	1	28.17	3.1674	2	476.2
1	-2	-1	28.17	3.1674	2	476.2
2	1	1	28.90	3.0894	2	437.0
2	1	-1	28.90	3.0894	2	437.0
2	-1	-1	28.90	3.0894	2	437.0
2	-1	1	28.90	3.0894	2	437.0
0	0	2	29.78	3.0001	2	514.6
2	-2	0	30.86	2.8974	2	221.1
2	2	0	30.86	2.8974	2	221.1
1	1	-2	33.64	2.6643	2	108.0
1	1	2	33.64	2.6643	2	108.0
1	-1	2	33.64	2.6643	2	108.0
1	-1	-2	33.64	2.6643	2	108.0
1	3	0	33.79	2.6527	2	205.0
1	-3	0	33.79	2.6527	2	205.0
2	-2	1	34.37	2.6091	2	20.9
2	2	-1	34.37	2.6091	2	20.9
2	-2	-1	34.37	2.6091	2	20.9
2	2	1	34.37	2.6091	2	20.9
3	-1	0	35.42	2.5344	2	134.3
3	1	0	35.42	2.5344	2	134.3
0	2	2	36.76	2.4451	2	155.4
0	2	-2	36.76	2.4451	2	155.4
1	3	1	37.05	2.4262	2	25.6
1	3	-1	37.05	2.4262	2	25.6
1	-3	-1	37.05	2.4262	2	25.6
1	-3	1	37.05	2.4262	2	25.6
2	0	2	37.52	2.3969	2	233.0
2	0	-2	37.52	2.3969	2	233.0
1	2	2	38.51	2.3376	2	31.3
1	2	-2	38.51	2.3376	2	31.3
1	-2	2	38.51	2.3376	2	31.3
1	-2	-2	38.51	2.3376	2	31.3
3	-1	1	38.56	2.3347	2	23.8
3	1	1	38.56	2.3347	2	23.8
3	-1	-1	38.56	2.3347	2	23.8
3	1	-1	38.56	2.3347	2	23.8
2	1	-2	39.06	2.3057	2	112.8
2	1	2	39.06	2.3057	2	112.8
2	-1	-2	39.06	2.3057	2	112.8
2	-1	2	39.06	2.3057	2	112.8
2	-3	0	39.20	2.2982	2	2.5
2	3	0	39.20	2.2982	2	2.5
3	-2	0	40.10	2.2484	2	13.9
3	2	0	40.10	2.2484	2	13.9
2	-3	-1	42.10	2.1462	2	2.5
2	-3	1	42.10	2.1462	2	2.5
2	3	-1	42.10	2.1462	2	2.5
2	3	1	42.10	2.1462	2	2.5
0	4	0	42.86	2.1098	2	3.7
3	-2	-1	42.96	2.1054	2	0.2
3	-2	1	42.96	2.1054	2	0.2
3	2	-1	42.96	2.1054	2	0.2
3	2	1	42.96	2.1054	2	0.2
2	-2	2	43.42	2.0842	2	2.7
2	2	-2	43.42	2.0842	2	2.7
2	2	2	43.42	2.0842	2	2.7
2	-2	-2	43.42	2.0842	2	2.7
1	4	0	44.42	2.0395	2	121.9
1	-4	0	44.42	2.0395	2	121.9
0	0	3	45.34	2.0001	2	76.9
4	0	0	45.52	1.9928	2	31.9
0	4	-1	45.58	1.9903	2	3.6
0	4	1	45.58	1.9903	2	3.6
1	3	-2	45.65	1.9873	2	20.3
1	3	2	45.65	1.9873	2	20.3
1	-3	2	45.65	1.9873	2	20.3
1	-3	-2	45.65	1.9873	2	20.3
4	1	0	46.84	1.9394	2	77.8
4	-1	0	46.84	1.9394	2	77.8
3	-1	-2	46.93	1.9361	2	4.9
3	1	-2	46.93	1.9361	2	4.9
3	-1	2	46.93	1.9361	2	4.9
3	1	2	46.93	1.9361	2	4.9
3	-3	0	47.04	1.9316	2	113.9
3	3	0	47.04	1.9316	2	113.9
1	4	1	47.06	1.9310	2	156.4
1	-4	-1	47.06	1.9310	2	156.4
1	-4	1	47.06	1.9310	2	156.4
1	4	-1	47.06	1.9310	2	156.4
4	0	1	48.11	1.8912	2	0.6
4	0	-1	48.11	1.8912	2	0.6
1	1	3	48.13	1.8907	2	0.2
1	1	-3	48.13	1.8907	2	0.2
1	-1	3	48.13	1.8907	2	0.2
1	-1	-3	48.13	1.8907	2	0.2
2	4	0	48.84	1.8646	2	36.0
2	-4	0	48.84	1.8646	2	36.0
4	-1	1	49.38	1.8454	2	118.5
4	1	1	49.38	1.8454	2	118.5
4	-1	-1	49.38	1.8454	2	118.5
4	1	-1	49.38	1.8454	2	118.5
3	-3	1	49.58	1.8387	2	61.8
3	3	1	49.58	1.8387	2	61.8
3	3	-1	49.58	1.8387	2	61.8
3	-3	-1	49.58	1.8387	2	61.8
2	3	-2	49.99	1.8244	2	1.3
2	-3	2	49.99	1.8244	2	1.3
2	-3	-2	49.99	1.8244	2	1.3
2	3	2	49.99	1.8244	2	1.3
0	2	3	50.50	1.8073	2	19.8
0	2	-3	50.50	1.8073	2	19.8
4	-2	0	50.66	1.8019	2	44.1
4	2	0	50.66	1.8019	2	44.1
3	-2	-2	50.74	1.7992	2	12.9
3	2	2	50.74	1.7992	2	12.9
3	-2	2	50.74	1.7992	2	12.9
3	2	-2	50.74	1.7992	2	12.9
2	0	-3	51.09	1.7876	2	31.9
2	0	3	51.09	1.7876	2	31.9
2	4	-1	51.31	1.7806	2	0.9
2	4	1	51.31	1.7806	2	0.9
2	-4	-1	51.31	1.7806	2	0.9
2	-4	1	51.31	1.7806	2	0.9
1	2	3	51.87	1.7626	2	86.8
1	2	-3	51.87	1.7626	2	86.8
1	-2	3	51.87	1.7626	2	86.8
1	-2	-3	51.87	1.7626	2	86.8
2	-1	3	52.31	1.7488	2	90.7
2	1	3	52.31	1.7488	2	90.7
2	-1	-3	52.31	1.7488	2	90.7
2	1	-3	52.31	1.7488	2	90.7
4	-2	1	53.06	1.7258	2	0.0
4	2	-1	53.06	1.7258	2	0.0
4	2	1	53.06	1.7258	2	0.0
4	-2	-1	53.06	1.7258	2	0.0
0	4	2	53.06	1.7258	2	63.5
0	4	-2	53.06	1.7258	2	63.5
1	-4	-2	54.39	1.6867	2	41.8
1	4	-2	54.39	1.6867	2	41.8
1	4	2	54.39	1.6867	2	41.8
1	-4	2	54.39	1.6867	2	41.8
4	0	-2	55.34	1.6600	2	44.1
4	0	2	55.34	1.6600	2	44.1
3	-4	0	55.62	1.6523	2	1.9
3	4	0	55.62	1.6523	2	1.9
1	5	0	55.66	1.6512	2	1.4
1	-5	0	55.66	1.6512	2	1.4
2	2	-3	55.85	1.6460	2	8.7
2	-2	3	55.85	1.6460	2	8.7
2	2	3	55.85	1.6460	2	8.7
2	-2	-3	55.85	1.6460	2	8.7
4	1	2	56.50	1.6287	2	50.4
4	-1	-2	56.50	1.6287	2	50.4
4	-1	2	56.50	1.6287	2	50.4
4	1	-2	56.50	1.6287	2	50.4
4	-3	0	56.60	1.6261	2	0.8
4	3	0	56.60	1.6261	2	0.8
3	3	-2	56.67	1.6241	2	205.6
3	-3	2	56.67	1.6241	2	205.6
3	-3	-2	56.67	1.6241	2	205.6
3	3	2	56.67	1.6241	2	205.6
1	3	-3	57.73	1.5970	2	11.0
1	-3	3	57.73	1.5970	2	11.0
1	3	3	57.73	1.5970	2	11.0
1	-3	-3	57.73	1.5970	2	11.0
3	-4	1	57.89	1.5930	2	0.9
3	-4	-1	57.89	1.5930	2	0.9
3	4	1	57.89	1.5930	2	0.9
3	4	-1	57.89	1.5930	2	0.9
1	5	1	57.92	1.5920	2	3.2
1	5	-1	57.92	1.5920	2	3.2
1	-5	1	57.92	1.5920	2	3.2
1	-5	-1	57.92	1.5920	2	3.2
2	-4	2	58.26	1.5837	2	0.0
2	4	-2	58.26	1.5837	2	0.0
2	-4	-2	58.26	1.5837	2	0.0
2	4	2	58.26	1.5837	2	0.0
3	-1	-3	58.81	1.5701	2	10.6
3	1	-3	58.81	1.5701	2	10.6
3	1	3	58.81	1.5701	2	10.6
3	-1	3	58.81	1.5701	2	10.6
4	-3	1	58.84	1.5695	2	1.1
4	-3	-1	58.84	1.5695	2	1.1
4	3	-1	58.84	1.5695	2	1.1
4	3	1	58.84	1.5695	2	1.1
5	1	0	58.96	1.5665	2	1.3
5	-1	0	58.96	1.5665	2	1.3
2	5	0	59.47	1.5542	2	5.8
2	-5	0	59.47	1.5542	2	5.8
4	-2	-2	59.87	1.5447	2	1.1
4	2	2	59.87	1.5447	2	1.1
4	-2	2	59.87	1.5447	2	1.1
4	2	-2	59.87	1.5447	2	1.1

File: peaks_Si.csv
H	K	L	2THETA	D-VALUE	MULT	INTENSITY
1	1	1	28.47	3.1353	2	1000.0
1	1	-1	28.47	3.1353	2	1000.0
1	-1	1	28.47	3.1353	2	1000.0
1	-1	-1	28.47	3.1353	2	1000.0
2	2	0	47.35	1.9200	2	427.3
2	0	-2	47.35	1.9200	2	427.3
0	2	-2	47.35	1.9200	2	427.3
2	-2	0	47.35	1.9200	2	427.3
2	0	2	47.35	1.9200	2	427.3
0	2	2	47.35	1.9200	2	427.3
1	3	1	56.18	1.6374	2	123.7
1	1	3	56.18	1.6374	2	123.7
1	1	-3	56.18	1.6374	2	123.7
3	1	1	56.18	1.6374	2	123.7
3	1	-1	56.18	1.6374	2	123.7
3	-1	1	56.18	1.6374	2	123.7
1	-3	1	56.18	1.6374	2	123.7
1	-1	3	56.18	1.6374	2	123.7
1	3	-1	56.18	1.6374	2	123.7
3	-1	-1	56.18	1.6374	2	123.7
1	-3	-1	56.18	1.6374	2	123.7
1	-1	-3	56.18	1.6374	2	123.7
2	-2	2	58.91	1.5677	2	0.0
2	2	-2	58.91	1.5677	2	0.0
2	-2	-2	58.91	1.5677	2	0.0
2	2	2	58.91	1.5677	2	0.0